# k (MeV)	C(k)
0.197327	120.56186
2.176536	10.930714
4.155745	5.731217
6.134955	3.915569
8.114164	3.02182
10.093373	2.505447
12.072582	2.175666
14.051792	1.949701
16.031001	1.786584
18.01021	1.664037
19.989419	1.569033
21.968629	1.493508
23.947838	1.432226
25.927047	1.381654
27.906256	1.339329
29.885466	1.303484
31.864675	1.27282
33.843884	1.246363
35.823093	1.223368
37.802302	1.203255
39.781512	1.185568
41.760721	1.169942
43.73993	1.156081
45.719139	1.143744
47.698349	1.132732
49.677558	1.122878
51.656767	1.114042
53.635976	1.106106
55.615186	1.098969
57.594395	1.092544
59.573604	1.086756
61.552813	1.081539
63.532023	1.076838
65.511232	1.0726
67.490441	1.068782
69.46965	1.065346
71.44886	1.062254
73.428069	1.059477
75.407278	1.056985
77.386487	1.054754
79.365697	1.052761
81.344906	1.050984
83.324115	1.049405
85.303324	1.048007
87.282533	1.046773
89.261743	1.04569
91.240952	1.044744
93.220161	1.043922
95.19937	1.043214
97.17858	1.04261
99.157789	1.0421
101.136998	1.041674
103.116207	1.041326
105.095417	1.041047
107.074626	1.04083
109.053835	1.04067
111.033044	1.04056
113.012254	1.040495
114.991463	1.040469
116.970672	1.040479
118.949881	1.040519
120.929091	1.040586
122.9083	1.040676
124.887509	1.040785
126.866718	1.040911
128.845927	1.041051
130.825137	1.041201
132.804346	1.041361
134.783555	1.041527
136.762764	1.041697
138.741974	1.04187
140.721183	1.042044
142.700392	1.042217
144.679601	1.042389
146.658811	1.042558
148.63802	1.042722
150.617229	1.042882
152.596438	1.043036
154.575648	1.043184
156.554857	1.043324
158.534066	1.043456
160.513275	1.043581
162.492485	1.043697
164.471694	1.043804
166.450903	1.043902
168.430112	1.043991
170.409321	1.04407
172.388531	1.044141
174.36774	1.044201
176.346949	1.044252
178.326158	1.044294
180.305368	1.044327
182.284577	1.04435
184.263786	1.044365
186.242995	1.04437
188.222205	1.044367
190.201414	1.044355
192.180623	1.044335
194.159832	1.044308
196.139042	1.044272
198.118251	1.044229
200.09746	1.044178
202.076669	1.04412
204.055879	1.044056
206.035088	1.043985
208.014297	1.043908
209.993506	1.043825
211.972715	1.043737
213.951925	1.043643
215.931134	1.043544
217.910343	1.04344
219.889552	1.043331
221.868762	1.043218
223.847971	1.043101
225.82718	1.04298
227.806389	1.042855
229.785599	1.042727
231.764808	1.042595
233.744017	1.042461
235.723226	1.042324
237.702436	1.042184
239.681645	1.042041
241.660854	1.041897
243.640063	1.04175
245.619273	1.041602
247.598482	1.041452
249.577691	1.0413
251.5569	1.041147
253.53611	1.040992
255.515319	1.040837
257.494528	1.04068
259.473737	1.040523
261.452946	1.040364
263.432156	1.040205
265.411365	1.040046
267.390574	1.039886
269.369783	1.039725
271.348993	1.039565
273.328202	1.039404
275.307411	1.039243
277.28662	1.039082
279.26583	1.038921
281.245039	1.03876
283.224248	1.038599
285.203457	1.038439
287.182667	1.038279
289.161876	1.038119
291.141085	1.037959
293.120294	1.0378
295.099504	1.037641
297.078713	1.037483
299.057922	1.037325
301.037131	1.037168
303.01634	1.037011
304.99555	1.036855
306.974759	1.0367
308.953968	1.036545
310.933177	1.036391
312.912387	1.036238
314.891596	1.036086
316.870805	1.035934
318.850014	1.035783
320.829224	1.035633
322.808433	1.035483
324.787642	1.035335
326.766851	1.035187
328.746061	1.03504
330.72527	1.034894
332.704479	1.034748
334.683688	1.034604
336.662898	1.03446
338.642107	1.034317
340.621316	1.034176
342.600525	1.034035
344.579734	1.033894
346.558944	1.033755
348.538153	1.033617
350.517362	1.033479
352.496571	1.033342
354.475781	1.033207
356.45499	1.033072
358.434199	1.032937
360.413408	1.032804
362.392618	1.032672
364.371827	1.03254
366.351036	1.03241
368.330245	1.03228
370.309455	1.032151
372.288664	1.032023
374.267873	1.031896
376.247082	1.03177
378.226292	1.031644
380.205501	1.031519
382.18471	1.031396
384.163919	1.031273
386.143128	1.03115
388.122338	1.031029
390.101547	1.030908
392.080756	1.030789
394.059965	1.03067
396.039175	1.030552
398.018384	1.030434
399.997593	1.030318
401.976802	1.030202
403.956012	1.030087
405.935221	1.029973
407.91443	1.029859
409.893639	1.029747
411.872849	1.029635
413.852058	1.029524
415.831267	1.029413
417.810476	1.029304
419.789686	1.029195
421.768895	1.029087
423.748104	1.028979
425.727313	1.028872
427.706522	1.028766
429.685732	1.028661
431.664941	1.028556
433.64415	1.028452
435.623359	1.028349
437.602569	1.028247
439.581778	1.028145
441.560987	1.028044
443.540196	1.027943
445.519406	1.027843
447.498615	1.027744
449.477824	1.027646
451.457033	1.027548
453.436243	1.02745
455.415452	1.027354
457.394661	1.027258
459.37387	1.027162
461.35308	1.027068
463.332289	1.026974
465.311498	1.02688
467.290707	1.026787
469.269917	1.026695
471.249126	1.026603
473.228335	1.026512
475.207544	1.026422
477.186753	1.026332
479.165963	1.026242
481.145172	1.026154
483.124381	1.026065
485.10359	1.025978
487.0828	1.025891
489.062009	1.025804
491.041218	1.025718
493.020427	1.025633
494.999637	1.025548
496.978846	1.025463
498.958055	1.025379
500.937264	1.025296
502.916474	1.025213
504.895683	1.025131
506.874892	1.025049
508.854101	1.024968
510.833311	1.024887
512.81252	1.024807
514.791729	1.024727
516.770938	1.024648
518.750147	1.024569
520.729357	1.024491
522.708566	1.024413
524.687775	1.024335
526.666984	1.024258
528.646194	1.024182
530.625403	1.024106
532.604612	1.02403
534.583821	1.023955
536.563031	1.023881
538.54224	1.023807
540.521449	1.023733
542.500658	1.02366
544.479868	1.023587
546.459077	1.023514
548.438286	1.023442
550.417495	1.023371
552.396705	1.0233
554.375914	1.023229
556.355123	1.023159
558.334332	1.023089
560.313541	1.023019
562.292751	1.02295
564.27196	1.022881
566.251169	1.022813
568.230378	1.022745
570.209588	1.022678
572.188797	1.02261
574.168006	1.022544
576.147215	1.022477
578.126425	1.022411
580.105634	1.022346
582.084843	1.02228
584.064052	1.022216
586.043262	1.022151
588.022471	1.022087
590.00168	1.022023
591.980889	1.02196
